File: Map Sum Spectrum.txt
#FORMAT      : EMSA/MAS Spectral Data File
#VERSION     : 1.0
#TITLE       : Map Sum Spectrum
#DATE        : 04-SEP-2020
#TIME        : 10:07
#OWNER       :
#NPOINTS     : 1024.0
#NCOLUMNS    : 1.0
#XUNITS      : keV
#YUNITS      : counts
#DATATYPE    : XY
#XPERCHAN    : 0.01
#OFFSET      : -0.1
#SIGNALTYPE  : EDS
#CHOFFSET    : 10.0
#LIVETIME    : 314.573
#REALTIME    : 398.648
#BEAMKV      : 15.0
#MAGCAM      : 10000.0
#XTILTSTGE   : 0.0
#AZIMANGLE   : 0.0
#ELEVANGLE   : 29.0
#XPOSITION mm: -0.2765
#YPOSITION mm: -0.2468
#ZPOSITION mm: 11.0512
##OXINSTPT   : 4
##OXINSTSTROB: 45.93
##OXINSTELEMS: 8,6,29,14,79,22
##OXINSTLABEL: 8, 0.525, O
##OXINSTLABEL: 6, 0.277, C
##OXINSTLABEL: 29, 8.048, Cu
##OXINSTLABEL: 29, 8.905, Cu
##OXINSTLABEL: 29, 0.930, Cu
##OXINSTLABEL: 29, 0.832, Cu
##OXINSTLABEL: 29, 0.811, Cu
##OXINSTLABEL: 14, 1.740, Si
##OXINSTLABEL: 79, 9.713, Au
##OXINSTLABEL: 79, 8.494, Au
##OXINSTLABEL: 79, 2.123, Au
##OXINSTLABEL: 79, 2.410, Au
##OXINSTLABEL: 79, 1.648, Au
##OXINSTLABEL: 79, 0.265, Au
##OXINSTLABEL: 79, 0.251, Au
##OXINSTLABEL: 22, 4.511, Ti
##OXINSTLABEL: 22, 4.932, Ti
##OXINSTLABEL: 22, 0.452, Ti
##OXINSTLABEL: 22, 0.395, Ti
#SPECTRUM    : Spectral Data Starts Here
-0.10000, 0.0
-0.09000, 0.0
-0.08000, 0.0
-0.07000, 1.0
-0.06000, 19.0
-0.05000, 57.0
-0.04000, 244.0
-0.03000, 785.0
-0.02000, 1747.0
-0.01000, 3233.0
0.00000, 4616.0
0.01000, 5166.0
0.02000, 4533.0
0.03000, 3185.0
0.04000, 1773.0
0.05000, 845.0
0.06000, 518.0
0.07000, 629.0
0.08000, 1099.0
0.09000, 1818.0
0.10000, 2840.0
0.11000, 4106.0
0.12000, 5823.0
0.13000, 7642.0
0.14000, 9106.0
0.15000, 10171.0
0.16000, 10948.0
0.17000, 11236.0
0.18000, 11217.0
0.19000, 11300.0
0.20000, 12249.0
0.21000, 14426.0
0.22000, 18453.0
0.23000, 25117.0
0.24000, 34421.0
0.25000, 44650.0
0.26000, 52294.0
0.27000, 54467.0
0.28000, 49030.0
0.29000, 38119.0
0.30000, 26147.0
0.31000, 16371.0
0.32000, 10233.0
0.33000, 7621.0
0.34000, 7445.0
0.35000, 8574.0
0.36000, 10410.0
0.37000, 12287.0
0.38000, 13437.0
0.39000, 13396.0
0.40000, 12447.0
0.41000, 11304.0
0.42000, 10706.0
0.43000, 10770.0
0.44000, 11405.0
0.45000, 12444.0
0.46000, 13424.0
0.47000, 14308.0
0.48000, 15311.0
0.49000, 16551.0
0.50000, 18200.0
0.51000, 19581.0
0.52000, 19960.0
0.53000, 19011.0
0.54000, 16819.0
0.55000, 14470.0
0.56000, 12066.0
0.57000, 10338.0
0.58000, 9485.0
0.59000, 9086.0
0.60000, 9176.0
0.61000, 9477.0
0.62000, 9850.0
0.63000, 10225.0
0.64000, 10587.0
0.65000, 10937.0
0.66000, 11437.0
0.67000, 11594.0
0.68000, 11902.0
0.69000, 12260.0
0.70000, 12495.0
0.71000, 12712.0
0.72000, 12821.0
0.73000, 12975.0
0.74000, 13286.0
0.75000, 13619.0
0.76000, 14026.0
0.77000, 14436.0
0.78000, 14818.0
0.79000, 15176.0
0.80000, 15730.0
0.81000, 16194.0
0.82000, 16586.0
0.83000, 16867.0
0.84000, 17065.0
0.85000, 17215.0
0.86000, 17810.0
0.87000, 18652.0
0.88000, 19741.0
0.89000, 21612.0
0.90000, 24319.0
0.91000, 27140.0
0.92000, 29597.0
0.93000, 30926.0
0.94000, 31179.0
0.95000, 30089.0
0.96000, 27822.0
0.97000, 25284.0
0.98000, 23009.0
0.99000, 21314.0
1.00000, 20399.0
1.01000, 19871.0
1.02000, 19754.0
1.03000, 19758.0
1.04000, 19676.0
1.05000, 19677.0
1.06000, 19762.0
1.07000, 19896.0
1.08000, 20003.0
1.09000, 20116.0
1.10000, 20131.0
1.11000, 20197.0
1.12000, 20087.0
1.13000, 19856.0
1.14000, 19826.0
1.15000, 19844.0
1.16000, 19940.0
1.17000, 19906.0
1.18000, 19796.0
1.19000, 19776.0
1.20000, 20006.0
1.21000, 20107.0
1.22000, 20191.0
1.23000, 20225.0
1.24000, 20162.0
1.25000, 20199.0
1.26000, 20422.0
1.27000, 20516.0
1.28000, 20364.0
1.29000, 20423.0
1.30000, 20532.0
1.31000, 20586.0
1.32000, 20485.0
1.33000, 20497.0
1.34000, 20640.0
1.35000, 20783.0
1.36000, 20809.0
1.37000, 21029.0
1.38000, 21199.0
1.39000, 21120.0
1.40000, 21225.0
1.41000, 21540.0
1.42000, 21771.0
1.43000, 22221.0
1.44000, 22745.0
1.45000, 23693.0
1.46000, 24623.0
1.47000, 25301.0
1.48000, 26094.0
1.49000, 26656.0
1.50000, 26371.0
1.51000, 25782.0
1.52000, 25220.0
1.53000, 24639.0
1.54000, 24238.0
1.55000, 23830.0
1.56000, 23741.0
1.57000, 24310.0
1.58000, 25201.0
1.59000, 26692.0
1.60000, 29097.0
1.61000, 32740.0
1.62000, 37310.0
1.63000, 42858.0
1.64000, 51116.0
1.65000, 63005.0
1.66000, 82625.0
1.67000, 115547.0
1.68000, 167724.0
1.69000, 243084.0
1.70000, 341483.0
1.71000, 453699.0
1.72000, 563709.0
1.73000, 648200.0
1.74000, 687642.0
1.75000, 672169.0
1.76000, 606463.0
1.77000, 505419.0
1.78000, 391816.0
1.79000, 285142.0
1.80000, 199089.0
1.81000, 137588.0
1.82000, 97663.0
1.83000, 73792.0
1.84000, 59939.0
1.85000, 50800.0
1.86000, 43667.0
1.87000, 37307.0
1.88000, 31895.0
1.89000, 27390.0
1.90000, 23844.0
1.91000, 21888.0
1.92000, 20663.0
1.93000, 20218.0
1.94000, 20306.0
1.95000, 20827.0
1.96000, 21372.0
1.97000, 22017.0
1.98000, 22682.0
1.99000, 23513.0
2.00000, 24672.0
2.01000, 26866.0
2.02000, 30116.0
2.03000, 35837.0
2.04000, 45867.0
2.05000, 61802.0
2.06000, 86432.0
2.07000, 119922.0
2.08000, 162342.0
2.09000, 210356.0
2.10000, 259339.0
2.11000, 302125.0
2.12000, 332243.0
2.13000, 346520.0
2.14000, 342851.0
2.15000, 327538.0
2.16000, 306020.0
2.17000, 283829.0
2.18000, 265911.0
2.19000, 252588.0
2.20000, 239872.0
2.21000, 224986.0
2.22000, 205304.0
2.23000, 178856.0
2.24000, 148378.0
2.25000, 116836.0
2.26000, 87533.0
2.27000, 63195.0
2.28000, 44702.0
2.29000, 31582.0
2.30000, 23406.0
2.31000, 18612.0
2.32000, 15983.0
2.33000, 15050.0
2.34000, 15325.0
2.35000, 16280.0
2.36000, 17759.0
2.37000, 19652.0
2.38000, 21535.0
2.39000, 23036.0
2.40000, 24308.0
2.41000, 24951.0
2.42000, 24595.0
2.43000, 23550.0
2.44000, 21909.0
2.45000, 19938.0
2.46000, 17734.0
2.47000, 15859.0
2.48000, 14178.0
2.49000, 12857.0
2.50000, 11937.0
2.51000, 11325.0
2.52000, 10998.0
2.53000, 10808.0
2.54000, 10727.0
2.55000, 10667.0
2.56000, 10613.0
2.57000, 10619.0
2.58000, 10687.0
2.59000, 10721.0
2.60000, 10963.0
2.61000, 11185.0
2.62000, 11275.0
2.63000, 11326.0
2.64000, 11379.0
2.65000, 11386.0
2.66000, 11502.0
2.67000, 11574.0
2.68000, 11584.0
2.69000, 11642.0
2.70000, 11796.0
2.71000, 12009.0
2.72000, 12203.0
2.73000, 12613.0
2.74000, 12999.0
2.75000, 13307.0
2.76000, 13857.0
2.77000, 14055.0
2.78000, 14062.0
2.79000, 14180.0
2.80000, 14014.0
2.81000, 13767.0
2.82000, 13460.0
2.83000, 13036.0
2.84000, 12595.0
2.85000, 12078.0
2.86000, 11695.0
2.87000, 11395.0
2.88000, 11270.0
2.89000, 11010.0
2.90000, 10795.0
2.91000, 10670.0
2.92000, 10544.0
2.93000, 10446.0
2.94000, 10300.0
2.95000, 10224.0
2.96000, 10107.0
2.97000, 9920.0
2.98000, 9992.0
2.99000, 9947.0
3.00000, 9813.0
3.01000, 9861.0
3.02000, 9910.0
3.03000, 10024.0
3.04000, 9999.0
3.05000, 10009.0
3.06000, 10019.0
3.07000, 10089.0
3.08000, 9987.0
3.09000, 9989.0
3.10000, 10068.0
3.11000, 10084.0
3.12000, 10125.0
3.13000, 10211.0
3.14000, 10155.0
3.15000, 10225.0
3.16000, 10103.0
3.17000, 9948.0
3.18000, 10076.0
3.19000, 9919.0
3.20000, 9899.0
3.21000, 9920.0
3.22000, 9758.0
3.23000, 9688.0
3.24000, 9738.0
3.25000, 9812.0
3.26000, 9665.0
3.27000, 9659.0
3.28000, 9678.0
3.29000, 9624.0
3.30000, 9730.0
3.31000, 9726.0
3.32000, 9730.0
3.33000, 9884.0
3.34000, 9923.0
3.35000, 9921.0
3.36000, 10130.0
3.37000, 10182.0
3.38000, 10109.0
3.39000, 10388.0
3.40000, 10468.0
3.41000, 10618.0
3.42000, 10754.0
3.43000, 11063.0
3.44000, 11295.0
3.45000, 11691.0
3.46000, 12038.0
3.47000, 12259.0
3.48000, 12411.0
3.49000, 12384.0
3.50000, 12233.0
3.51000, 11892.0
3.52000, 11598.0
3.53000, 11130.0
3.54000, 10780.0
3.55000, 10409.0
3.56000, 10188.0
3.57000, 10026.0
3.58000, 9793.0
3.59000, 9599.0
3.60000, 9424.0
3.61000, 9459.0
3.62000, 9548.0
3.63000, 9469.0
3.64000, 9395.0
3.65000, 9325.0
3.66000, 9396.0
3.67000, 9316.0
3.68000, 9279.0
3.69000, 9225.0
3.70000, 9313.0
3.71000, 9347.0
3.72000, 9209.0
3.73000, 9238.0
3.74000, 9270.0
3.75000, 9279.0
3.76000, 9358.0
3.77000, 9522.0
3.78000, 9667.0
3.79000, 9833.0
3.80000, 10080.0
3.81000, 10373.0
3.82000, 10762.0
3.83000, 11187.0
3.84000, 11649.0
3.85000, 11883.0
3.86000, 12107.0
3.87000, 12328.0
3.88000, 12236.0
3.89000, 12195.0
3.90000, 12205.0
3.91000, 12164.0
3.92000, 11955.0
3.93000, 11665.0
3.94000, 11534.0
3.95000, 11273.0
3.96000, 11052.0
3.97000, 10752.0
3.98000, 10430.0
3.99000, 10118.0
4.00000, 9848.0
4.01000, 9488.0
4.02000, 9300.0
4.03000, 9143.0
4.04000, 9102.0
4.05000, 8887.0
4.06000, 8725.0
4.07000, 8751.0
4.08000, 8650.0
4.09000, 8575.0
4.10000, 8556.0
4.11000, 8486.0
4.12000, 8681.0
4.13000, 8674.0
4.14000, 8649.0
4.15000, 8647.0
4.16000, 8640.0
4.17000, 8832.0
4.18000, 8809.0
4.19000, 8799.0
4.20000, 8935.0
4.21000, 9109.0
4.22000, 9099.0
4.23000, 8984.0
4.24000, 9024.0
4.25000, 9115.0
4.26000, 9268.0
4.27000, 9374.0
4.28000, 9261.0
4.29000, 9270.0
4.30000, 9353.0
4.31000, 9439.0
4.32000, 9474.0
4.33000, 9262.0
4.34000, 9131.0
4.35000, 9124.0
4.36000, 9159.0
4.37000, 9050.0
4.38000, 8859.0
4.39000, 8863.0
4.40000, 8945.0
4.41000, 8941.0
4.42000, 8973.0
4.43000, 9058.0
4.44000, 9252.0
4.45000, 9531.0
4.46000, 9763.0
4.47000, 10149.0
4.48000, 10534.0
4.49000, 10887.0
4.50000, 10953.0
4.51000, 11098.0
4.52000, 11230.0
4.53000, 10985.0
4.54000, 10542.0
4.55000, 10231.0
4.56000, 9855.0
4.57000, 9501.0
4.58000, 8987.0
4.59000, 8655.0
4.60000, 8538.0
4.61000, 8178.0
4.62000, 7905.0
4.63000, 7884.0
4.64000, 7879.0
4.65000, 7757.0
4.66000, 7679.0
4.67000, 7705.0
4.68000, 7621.0
4.69000, 7515.0
4.70000, 7530.0
4.71000, 7543.0
4.72000, 7546.0
4.73000, 7501.0
4.74000, 7428.0
4.75000, 7403.0
4.76000, 7468.0
4.77000, 7431.0
4.78000, 7400.0
4.79000, 7464.0
4.80000, 7347.0
4.81000, 7345.0
4.82000, 7395.0
4.83000, 7414.0
4.84000, 7495.0
4.85000, 7602.0
4.86000, 7545.0
4.87000, 7429.0
4.88000, 7371.0
4.89000, 7310.0
4.90000, 7513.0
4.91000, 7671.0
4.92000, 7725.0
4.93000, 7646.0
4.94000, 7539.0
4.95000, 7537.0
4.96000, 7549.0
4.97000, 7532.0
4.98000, 7473.0
4.99000, 7388.0
5.00000, 7315.0
5.01000, 7151.0
5.02000, 7124.0
5.03000, 7140.0
5.04000, 7221.0
5.05000, 7124.0
5.06000, 7016.0
5.07000, 7010.0
5.08000, 7062.0
5.09000, 7032.0
5.10000, 7023.0
5.11000, 7001.0
5.12000, 6997.0
5.13000, 7005.0
5.14000, 6858.0
5.15000, 6889.0
5.16000, 6926.0
5.17000, 6845.0
5.18000, 6851.0
5.19000, 6911.0
5.20000, 6877.0
5.21000, 6797.0
5.22000, 6758.0
5.23000, 6899.0
5.24000, 7003.0
5.25000, 6976.0
5.26000, 6867.0
5.27000, 6748.0
5.28000, 6698.0
5.29000, 6678.0
5.30000, 6726.0
5.31000, 6800.0
5.32000, 6689.0
5.33000, 6665.0
5.34000, 6680.0
5.35000, 6661.0
5.36000, 6581.0
5.37000, 6581.0
5.38000, 6548.0
5.39000, 6548.0
5.40000, 6667.0
5.41000, 6581.0
5.42000, 6463.0
5.43000, 6624.0
5.44000, 6563.0
5.45000, 6540.0
5.46000, 6515.0
5.47000, 6516.0
5.48000, 6498.0
5.49000, 6529.0
5.50000, 6612.0
5.51000, 6565.0
5.52000, 6500.0
5.53000, 6475.0
5.54000, 6473.0
5.55000, 6521.0
5.56000, 6620.0
5.57000, 6602.0
5.58000, 6423.0
5.59000, 6330.0
5.60000, 6341.0
5.61000, 6409.0
5.62000, 6431.0
5.63000, 6342.0
5.64000, 6392.0
5.65000, 6343.0
5.66000, 6319.0
5.67000, 6354.0
5.68000, 6367.0
5.69000, 6300.0
5.70000, 6217.0
5.71000, 6293.0
5.72000, 6277.0
5.73000, 6210.0
5.74000, 6194.0
5.75000, 6208.0
5.76000, 6190.0
5.77000, 6156.0
5.78000, 6123.0
5.79000, 6188.0
5.80000, 6229.0
5.81000, 6149.0
5.82000, 6136.0
5.83000, 6147.0
5.84000, 6149.0
5.85000, 6061.0
5.86000, 6000.0
5.87000, 6080.0
5.88000, 6161.0
5.89000, 6140.0
5.90000, 5978.0
5.91000, 5951.0
5.92000, 6020.0
5.93000, 6038.0
5.94000, 5985.0
5.95000, 6037.0
5.96000, 6024.0
5.97000, 5926.0
5.98000, 5874.0
5.99000, 5911.0
6.00000, 5938.0
6.01000, 5903.0
6.02000, 5852.0
6.03000, 5798.0
6.04000, 5915.0
6.05000, 5867.0
6.06000, 5923.0
6.07000, 5919.0
6.08000, 5897.0
6.09000, 5888.0
6.10000, 5813.0
6.11000, 5868.0
6.12000, 5775.0
6.13000, 5719.0
6.14000, 5755.0
6.15000, 5761.0
6.16000, 5708.0
6.17000, 5742.0
6.18000, 5769.0
6.19000, 5673.0
6.20000, 5675.0
6.21000, 5701.0
6.22000, 5686.0
6.23000, 5755.0
6.24000, 5821.0
6.25000, 5763.0
6.26000, 5730.0
6.27000, 5674.0
6.28000, 5668.0
6.29000, 5667.0
6.30000, 5665.0
6.31000, 5566.0
6.32000, 5585.0
6.33000, 5584.0
6.34000, 5603.0
6.35000, 5520.0
6.36000, 5503.0
6.37000, 5405.0
6.38000, 5426.0
6.39000, 5475.0
6.40000, 5506.0
6.41000, 5566.0
6.42000, 5571.0
6.43000, 5548.0
6.44000, 5496.0
6.45000, 5467.0
6.46000, 5410.0
6.47000, 5392.0
6.48000, 5404.0
6.49000, 5277.0
6.50000, 5245.0
6.51000, 5294.0
6.52000, 5332.0
6.53000, 5361.0
6.54000, 5364.0
6.55000, 5421.0
6.56000, 5344.0
6.57000, 5343.0
6.58000, 5278.0
6.59000, 5241.0
6.60000, 5289.0
6.61000, 5322.0
6.62000, 5346.0
6.63000, 5293.0
6.64000, 5258.0
6.65000, 5240.0
6.66000, 5257.0
6.67000, 5215.0
6.68000, 5156.0
6.69000, 5179.0
6.70000, 5205.0
6.71000, 5192.0
6.72000, 5166.0
6.73000, 5144.0
6.74000, 5194.0
6.75000, 5175.0
6.76000, 5079.0
6.77000, 5105.0
6.78000, 5138.0
6.79000, 5119.0
6.80000, 5101.0
6.81000, 5056.0
6.82000, 5010.0
6.83000, 4982.0
6.84000, 5008.0
6.85000, 5064.0
6.86000, 5065.0
6.87000, 4994.0
6.88000, 4971.0
6.89000, 4975.0
6.90000, 4906.0
6.91000, 4905.0
6.92000, 4833.0
6.93000, 4797.0
6.94000, 4762.0
6.95000, 4958.0
6.96000, 4874.0
6.97000, 4856.0
6.98000, 4860.0
6.99000, 4847.0
7.00000, 4890.0
7.01000, 4861.0
7.02000, 4754.0
7.03000, 4780.0
7.04000, 4822.0
7.05000, 4779.0
7.06000, 4884.0
7.07000, 4877.0
7.08000, 4851.0
7.09000, 4872.0
7.10000, 4843.0
7.11000, 4787.0
7.12000, 4735.0
7.13000, 4669.0
7.14000, 4615.0
7.15000, 4667.0
7.16000, 4623.0
7.17000, 4613.0
7.18000, 4706.0
7.19000, 4678.0
7.20000, 4690.0
7.21000, 4637.0
7.22000, 4615.0
7.23000, 4623.0
7.24000, 4609.0
7.25000, 4634.0
7.26000, 4618.0
7.27000, 4620.0
7.28000, 4674.0
7.29000, 4695.0
7.30000, 4680.0
7.31000, 4617.0
7.32000, 4635.0
7.33000, 4622.0
7.34000, 4543.0
7.35000, 4565.0
7.36000, 4546.0
7.37000, 4481.0
7.38000, 4569.0
7.39000, 4632.0
7.40000, 4601.0
7.41000, 4543.0
7.42000, 4557.0
7.43000, 4555.0
7.44000, 4555.0
7.45000, 4500.0
7.46000, 4487.0
7.47000, 4545.0
7.48000, 4467.0
7.49000, 4432.0
7.50000, 4412.0
7.51000, 4480.0
7.52000, 4483.0
7.53000, 4461.0
7.54000, 4470.0
7.55000, 4497.0
7.56000, 4467.0
7.57000, 4415.0
7.58000, 4421.0
7.59000, 4385.0
7.60000, 4375.0
7.61000, 4397.0
7.62000, 4386.0
7.63000, 4332.0
7.64000, 4290.0
7.65000, 4246.0
7.66000, 4279.0
7.67000, 4319.0
7.68000, 4271.0
7.69000, 4296.0
7.70000, 4293.0
7.71000, 4267.0
7.72000, 4226.0
7.73000, 4261.0
7.74000, 4298.0
7.75000, 4249.0
7.76000, 4226.0
7.77000, 4240.0
7.78000, 4202.0
7.79000, 4240.0
7.80000, 4255.0
7.81000, 4281.0
7.82000, 4188.0
7.83000, 4195.0
7.84000, 4212.0
7.85000, 4220.0
7.86000, 4158.0
7.87000, 4152.0
7.88000, 4210.0
7.89000, 4230.0
7.90000, 4156.0
7.91000, 4279.0
7.92000, 4385.0
7.93000, 4493.0
7.94000, 4614.0
7.95000, 4574.0
7.96000, 4591.0
7.97000, 4680.0
7.98000, 4859.0
7.99000, 4911.0
8.00000, 5087.0
8.01000, 5163.0
8.02000, 5220.0
8.03000, 5203.0
8.04000, 5222.0
8.05000, 5150.0
8.06000, 5058.0
8.07000, 4937.0
8.08000, 4943.0
8.09000, 4843.0
8.10000, 4661.0
8.11000, 4557.0
8.12000, 4467.0
8.13000, 4438.0
8.14000, 4362.0
8.15000, 4209.0
8.16000, 4033.0
8.17000, 3990.0
8.18000, 3987.0
8.19000, 3940.0
8.20000, 3923.0
8.21000, 3962.0
8.22000, 3990.0
8.23000, 3963.0
8.24000, 3955.0
8.25000, 3912.0
8.26000, 3966.0
8.27000, 3964.0
8.28000, 3899.0
8.29000, 3897.0
8.30000, 3932.0
8.31000, 3886.0
8.32000, 3845.0
8.33000, 3824.0
8.34000, 3821.0
8.35000, 3896.0
8.36000, 3900.0
8.37000, 3871.0
8.38000, 3966.0
8.39000, 3971.0
8.40000, 4017.0
8.41000, 4149.0
8.42000, 4131.0
8.43000, 4050.0
8.44000, 4132.0
8.45000, 4191.0
8.46000, 4331.0
8.47000, 4290.0
8.48000, 4293.0
8.49000, 4329.0
8.50000, 4362.0
8.51000, 4331.0
8.52000, 4239.0
8.53000, 4174.0
8.54000, 4107.0
8.55000, 4044.0
8.56000, 4023.0
8.57000, 3987.0
8.58000, 3882.0
8.59000, 3879.0
8.60000, 3785.0
8.61000, 3755.0
8.62000, 3738.0
8.63000, 3653.0
8.64000, 3628.0
8.65000, 3631.0
8.66000, 3590.0
8.67000, 3600.0
8.68000, 3605.0
8.69000, 3581.0
8.70000, 3571.0
8.71000, 3608.0
8.72000, 3609.0
8.73000, 3505.0
8.74000, 3466.0
8.75000, 3554.0
8.76000, 3531.0
8.77000, 3530.0
8.78000, 3528.0
8.79000, 3565.0
8.80000, 3662.0
8.81000, 3625.0
8.82000, 3608.0
8.83000, 3554.0
8.84000, 3593.0
8.85000, 3645.0
8.86000, 3620.0
8.87000, 3619.0
8.88000, 3539.0
8.89000, 3582.0
8.90000, 3644.0
8.91000, 3611.0
8.92000, 3569.0
8.93000, 3534.0
8.94000, 3551.0
8.95000, 3546.0
8.96000, 3523.0
8.97000, 3471.0
8.98000, 3446.0
8.99000, 3446.0
9.00000, 3434.0
9.01000, 3407.0
9.02000, 3408.0
9.03000, 3385.0
9.04000, 3397.0
9.05000, 3431.0
9.06000, 3398.0
9.07000, 3389.0
9.08000, 3344.0
9.09000, 3262.0
9.10000, 3267.0
9.11000, 3291.0
9.12000, 3243.0
9.13000, 3259.0
9.14000, 3240.0
9.15000, 3224.0
9.16000, 3246.0
9.17000, 3277.0
9.18000, 3316.0
9.19000, 3299.0
9.20000, 3253.0
9.21000, 3283.0
9.22000, 3286.0
9.23000, 3247.0
9.24000, 3215.0
9.25000, 3196.0
9.26000, 3294.0
9.27000, 3280.0
9.28000, 3233.0
9.29000, 3201.0
9.30000, 3174.0
9.31000, 3167.0
9.32000, 3190.0
9.33000, 3134.0
9.34000, 3130.0
9.35000, 3146.0
9.36000, 3140.0
9.37000, 3166.0
9.38000, 3227.0
9.39000, 3193.0
9.40000, 3157.0
9.41000, 3165.0
9.42000, 3178.0
9.43000, 3238.0
9.44000, 3229.0
9.45000, 3261.0
9.46000, 3251.0
9.47000, 3272.0
9.48000, 3267.0
9.49000, 3412.0
9.50000, 3485.0
9.51000, 3569.0
9.52000, 3711.0
9.53000, 3912.0
9.54000, 4172.0
9.55000, 4491.0
9.56000, 4899.0
9.57000, 5323.0
9.58000, 5793.0
9.59000, 6448.0
9.60000, 7063.0
9.61000, 7999.0
9.62000, 8834.0
9.63000, 9568.0
9.64000, 10485.0
9.65000, 11439.0
9.66000, 12246.0
9.67000, 13072.0
9.68000, 13484.0
9.69000, 13826.0
9.70000, 14008.0
9.71000, 13977.0
9.72000, 13639.0
9.73000, 13330.0
9.74000, 12799.0
9.75000, 12007.0
9.76000, 11162.0
9.77000, 10292.0
9.78000, 9346.0
9.79000, 8297.0
9.80000, 7329.0
9.81000, 6524.0
9.82000, 5851.0
9.83000, 5252.0
9.84000, 4640.0
9.85000, 4243.0
9.86000, 3909.0
9.87000, 3636.0
9.88000, 3453.0
9.89000, 3277.0
9.90000, 3149.0
9.91000, 3028.0
9.92000, 2950.0
9.93000, 2866.0
9.94000, 2818.0
9.95000, 2857.0
9.96000, 2877.0
9.97000, 2870.0
9.98000, 2856.0
9.99000, 2843.0
10.00000, 2779.0
10.01000, 2787.0
10.02000, 2785.0
10.03000, 2827.0
10.04000, 2830.0
10.05000, 2786.0
10.06000, 2759.0
10.07000, 2776.0
10.08000, 2782.0
10.09000, 2802.0
10.10000, 2690.0
10.11000, 2670.0
10.12000, 2770.0
10.13000, 2751.0
#ENDOFDATA   :